{
  "resourceType": "Bundle",
  "id": "ODIL-Bundle-CarePlan",
  "meta": {
    "profile": [
      "http://fhir.odilab.de/StructureDefinition/ODIL-Bundle"
    ]
  },
  "identifier": {
    "system": "https://gematik.de/fhir/NamingSystem/PrescriptionID",
    "value": "162.240.219.130.055.90"
  },
  "entry": [
    {
      "fullUrl": "Composition/Odil-Composition-CarePlan",
      "resource": {
        "resourceType": "Composition",
        "id": "Odil-Composition-CarePlan",
        "meta": {
          "profile": [
            "http://fhir.odilab.de/StructureDefinition/Odil-CompositionHiMi"
          ]
        },
        "extension": [
          {
            "valueCoding": {
              "system": "https://fhir.kbv.de/CodeSystem/KBV_CS_SFHIR_KBV_STATUSKENNZEICHEN",
              "code": "00"
            },
            "url": "https://fhir.kbv.de/StructureDefinition/KBV_EX_FOR_Legal_basis"
          }
        ],
        "type": {
          "coding": [
            {
              "system": "https://fhir.odilab.de/ValueSet/VS_HIMI_HEIMI_KBV_FORMULAR_ART",
              "code": "e15H"
            }
          ]
        },
        "subject": {
          "reference": "Patient/416b7bc3-7483-46ba-bc67-306bf671c569"
        },
        "author": [
          {
            "type": "Practitioner",
            "reference": "Practitioner/416b7bc3-7483-46ba-bc67-306bf671c569"
          },
          {
            "identifier": {
              "system": "https://fhir.kbv.de/NamingSystem/KBV_NS_FOR_Pruefnummer",
              "value": "Y/400/2107/36/999"
            },
            "type": "Device"
          }
        ],
        "section": [
          {
            "entry": [
              {
                "reference": "CarePlan/BeispielHKPVerordnung"
              }
            ],
            "code": {
              "coding": [
                {
                  "system": "https://fhir.kbv.de/CodeSystem/KBV_CS_ERP_Section_Type",
                  "code": "PrescriptionHaeuslicheKrankenpflege"
                }
              ]
            }
          },
          {
            "entry": [
              {
                "reference": "Coverage/416b7bc3-7483-46ba-bc67-306bf671c569"
              }
            ],
            "code": {
              "coding": [
                {
                  "system": "https://fhir.kbv.de/CodeSystem/KBV_CS_ERP_Section_Type",
                  "code": "Coverage"
                }
              ]
            }
          }
        ],
        "status": "final",
        "title": "elektronische Arznei- Heil- Hilfsmittelverordnung",
        "date": "2021-01-01",
        "custodian": {
          "reference": "Organization/416b7bc3-7483-46ba-bc67-306bf671c569"
        }
      }
    },
    {
      "fullUrl": "CarePlan/BeispielHKPVerordnung",
      "resource": {
        "resourceType": "CarePlan",
        "id": "BeispielHKPVerordnung",
        "meta": {
          "profile": [
            "http://fhir.odilab.de/StructureDefinition/odil-careplan"
          ]
        },
        "period": {
          "start": "2024-07-01",
          "end": "2024-07-15"
        },
        "careTeam": [
          {
            "reference": "CareTeam/example"
          }
        ],
        "addresses": [
          {
            "extension": [
              {
                "url": "http://hl7.org/fhir/StructureDefinition/condition-assertedDate",
                "valueDateTime": "2024-06-30"
              }
            ],
            "reference": "Condition/example"
          }
        ],
        "extension": [
          {
            "url": "http://fhir.odilab.de/StructureDefinition/einschraenkungen",
            "valueString": "Eingeschr채nkte Mobilit채t"
          },
          {
            "url": "http://fhir.odilab.de/StructureDefinition/erstverordnung",
            "valueBoolean": true
          }
        ],
        "activity": [
          {
            "detail": {
              "extension": [
                {
                  "extension": [
                    {
                      "url": "productCodeableConcept",
                      "valueCodeableConcept": {
                        "coding": [
                          {
                            "code": "372567009",
                            "system": "http://snomed.info/sct",
                            "display": "Insulin"
                          }
                        ]
                      }
                    },
                    {
                      "url": "dailyAmount",
                      "valueQuantity": {
                        "value": 3,
                        "code": "{count}",
                        "system": "http://unitsofmeasure.org"
                      }
                    },
                    {
                      "url": "quantity",
                      "valueQuantity": {
                        "value": 10,
                        "code": "U",
                        "system": "http://unitsofmeasure.org",
                        "unit": "Units"
                      }
                    }
                  ],
                  "url": "http://fhir.odilab.de/StructureDefinition/medikamentengabe-details"
                }
              ],
              "kind": "ServiceRequest",
              "status": "scheduled",
              "code": {
                "coding": [
                  {
                    "code": "18629005",
                    "system": "http://snomed.info/sct",
                    "display": "Medikamentengabe"
                  }
                ]
              },
              "description": "3x t채glich 10 Einheiten Insulin"
            }
          },
          {
            "detail": {
              "extension": [
                {
                  "extension": [
                    {
                      "valueTiming": {
                        "repeat": {
                          "frequency": 3,
                          "period": 1,
                          "periodUnit": "d"
                        }
                      },
                      "url": "scheduledTiming"
                    }
                  ],
                  "url": "http://fhir.odilab.de/StructureDefinition/blutzuckermessung-details"
                }
              ],
              "kind": "ServiceRequest",
              "status": "scheduled",
              "code": {
                "coding": [
                  {
                    "code": "33747003",
                    "system": "http://snomed.info/sct",
                    "display": "Blutzuckermessung"
                  }
                ]
              },
              "description": "3x t채glich Blutzucker messen"
            }
          }
        ],
        "status": "active",
        "intent": "order",
        "subject": {
          "reference": "Patient/416b7bc3-7483-46ba-bc67-306bf671c569"
        },
        "created": "2024-06-30",
        "author": {
          "reference": "Practitioner/416b7bc3-7483-46ba-bc67-306bf671c569"
        }
      }
    },
    {
      "fullUrl": "Patient/416b7bc3-7483-46ba-bc67-306bf671c569",
      "resource": {
        "resourceType": "Patient",
        "id": "416b7bc3-7483-46ba-bc67-306bf671c569",
        "meta": {
          "profile": [
            "https://fhir.kbv.de/StructureDefinition/KBV_PR_FOR_Patient|1.1.0"
          ]
        },
        "identifier": [
          {
            "type": {
              "coding": [
                {
                  "system": "http://fhir.de/CodeSystem/identifier-type-de-basis",
                  "code": "GKV"
                }
              ]
            },
            "system": "http://fhir.de/sid/gkv/kvid-10",
            "value": "X123456789"
          }
        ],
        "name": [
          {
            "given": [
              "Erika"
            ],
            "use": "official",
            "family": "Musterfrau",
            "_family": {
              "extension": [
                {
                  "url": "http://hl7.org/fhir/StructureDefinition/humanname-own-name",
                  "valueString": "Musterfrau"
                }
              ]
            }
          }
        ],
        "address": [
          {
            "line": [
              "Musterstrasse 1"
            ],
            "_line": [
              {
                "extension": [
                  {
                    "url": "http://hl7.org/fhir/StructureDefinition/iso21090-ADXP-streetName",
                    "valueString": "Musterstrasse"
                  },
                  {
                    "url": "http://hl7.org/fhir/StructureDefinition/iso21090-ADXP-houseNumber",
                    "valueString": "1"
                  }
                ]
              }
            ],
            "type": "both",
            "city": "Musterstadt",
            "postalCode": "12345",
            "country": "D"
          }
        ],
        "birthDate": "2002-02-02"
      }
    },
    {
      "fullUrl": "Practitioner/416b7bc3-7483-46ba-bc67-306bf671c569",
      "resource": {
        "resourceType": "Practitioner",
        "id": "416b7bc3-7483-46ba-bc67-306bf671c569",
        "meta": {
          "profile": [
            "https://fhir.kbv.de/StructureDefinition/KBV_PR_FOR_Practitioner|1.1.0"
          ]
        },
        "identifier": [
          {
            "type": {
              "coding": [
                {
                  "system": "http://terminology.hl7.org/CodeSystem/v2-0203",
                  "code": "LANR"
                }
              ]
            },
            "system": "https://fhir.kbv.de/NamingSystem/KBV_NS_Base_ANR",
            "value": "123456789"
          }
        ],
        "name": [
          {
            "given": [
              "Albert"
            ],
            "use": "official",
            "family": "Arztmann",
            "_family": {
              "extension": [
                {
                  "url": "http://hl7.org/fhir/StructureDefinition/humanname-own-name",
                  "valueString": "Arztmann"
                }
              ]
            }
          }
        ],
        "qualification": [
          {
            "code": {
              "coding": [
                {
                  "system": "https://fhir.kbv.de/CodeSystem/KBV_CS_FOR_Qualification_Type",
                  "code": "00"
                }
              ]
            }
          },
          {
            "code": {
              "coding": [
                {
                  "system": "https://fhir.kbv.de/CodeSystem/KBV_CS_FOR_Berufsbezeichnung",
                  "code": "Berufsbezeichnung"
                }
              ],
              "text": "Arzt"
            }
          }
        ]
      }
    },
    {
      "fullUrl": "Organization/416b7bc3-7483-46ba-bc67-306bf671c569",
      "resource": {
        "resourceType": "Organization",
        "id": "416b7bc3-7483-46ba-bc67-306bf671c569",
        "meta": {
          "profile": [
            "https://fhir.kbv.de/StructureDefinition/KBV_PR_FOR_Organization|1.1.0"
          ]
        },
        "identifier": [
          {
            "type": {
              "coding": [
                {
                  "system": "http://terminology.hl7.org/CodeSystem/v2-0203",
                  "code": "BSNR"
                }
              ]
            },
            "system": "https://fhir.kbv.de/NamingSystem/KBV_NS_Base_BSNR",
            "value": "123456789"
          }
        ],
        "telecom": [
          {
            "system": "phone",
            "value": "0201-123456789"
          }
        ],
        "address": [
          {
            "line": [
              "Musterstrasse 1"
            ],
            "_line": [
              {
                "extension": [
                  {
                    "url": "http://hl7.org/fhir/StructureDefinition/iso21090-ADXP-streetName",
                    "valueString": "Musterstrasse"
                  },
                  {
                    "url": "http://hl7.org/fhir/StructureDefinition/iso21090-ADXP-houseNumber",
                    "valueString": "1"
                  }
                ]
              }
            ],
            "type": "both",
            "city": "Musterstadt",
            "postalCode": "12345",
            "country": "D"
          }
        ]
      }
    },
    {
      "fullUrl": "Coverage/416b7bc3-7483-46ba-bc67-306bf671c569",
      "resource": {
        "resourceType": "Coverage",
        "id": "416b7bc3-7483-46ba-bc67-306bf671c569",
        "meta": {
          "profile": [
            "https://fhir.kbv.de/StructureDefinition/KBV_PR_FOR_Coverage|1.1.0"
          ]
        },
        "extension": [
          {
            "valueCoding": {
              "system": "https://fhir.kbv.de/CodeSystem/KBV_CS_SFHIR_KBV_PERSONENGRUPPE",
              "code": "00"
            },
            "url": "http://fhir.de/StructureDefinition/gkv/besondere-personengruppe"
          },
          {
            "valueCoding": {
              "system": "https://fhir.kbv.de/CodeSystem/KBV_CS_SFHIR_KBV_DMP",
              "code": "00"
            },
            "url": "http://fhir.de/StructureDefinition/gkv/dmp-kennzeichen"
          },
          {
            "valueCoding": {
              "system": "https://fhir.kbv.de/CodeSystem/KBV_CS_SFHIR_KBV_VERSICHERTENSTATUS",
              "code": "1"
            },
            "url": "http://fhir.de/StructureDefinition/gkv/versichertenart"
          },
          {
            "valueCoding": {
              "system": "https://fhir.kbv.de/CodeSystem/KBV_CS_SFHIR_ITA_WOP",
              "code": "00"
            },
            "url": "http://fhir.de/StructureDefinition/gkv/wop"
          }
        ],
        "type": {
          "coding": [
            {
              "system": "http://fhir.de/CodeSystem/versicherungsart-de-basis",
              "code": "GKV"
            }
          ]
        },
        "beneficiary": {
          "reference": "Patient/416b7bc3-7483-46ba-bc67-306bf671c569"
        },
        "payor": [
          {
            "identifier": {
              "system": "http://fhir.de/sid/arge-ik/iknr",
              "value": "123456789"
            },
            "display": "KN Knappschaft"
          }
        ],
        "status": "active"
      }
    }
  ],
  "type": "document",
  "timestamp": "2021-01-01T00:00:00Z"
}
